Folder: solid-state_kinetics/resources

Note: resources/Export_test.json
{
    "reaction_0": "gauss",
    "reaction_1": "fraser"
}

Note: README.md
# solid-state_kinetics

[![.github/workflows/release.yml](https://github.com/kdavjd/solid-state_kinetics/actions/workflows/release.yml/badge.svg)](https://github.com/kdavjd/solid-state_kinetics/actions/workflows/release.yml)
[![.github/workflows/pre-commit.yml](https://github.com/kdavjd/solid-state_kinetics/actions/workflows/pre-commit.yml/badge.svg)](https://github.com/kdavjd/solid-state_kinetics/actions/workflows/pre-commit.yml)

---

## Setup dev environment

```bash
poetry env use python3.12 # В случае ошибки указать полный путь до интерпретатора вместо python3.12
poetry install
poetry run pre-commit install
```
## The entry point to the project.
src.gui.__main__
or
```bash
poetry run ssk-gui
```

File: DSC_NH4Cl_refined_10.0K_min.csv
#EXPORTTYPE:                 ;DATA COMPARE
#FILE:                       ;26.07.23_NH4Cl_��_10kmin_30-500�.ngb-ds5
#FORMAT:                     ;NETZSCH5
#FTYPE:                      ;ANSI
#IDENTITY:                   ;NH4Cl_��
#DECIMAL:                    ;COMMA
#SEPARATOR:                  ;SEMICOLON
#MTYPE:                      ;DSC
#INSTRUMENT:                 ;NETZSCH STA 449F5
#PROJECT:                    ;
#DATE/TIME:                  ;26.07.2023 10:30:10 (UTC+3)
#CORR. FILE:                 ;29.04.22_correction for composite-10kmin_30+500_N2-120.ngb-bs5
#TEMPCAL:                    ;10kmin-N2_washer+Al2O3+cover.ngb-ts5
#SENSITIVITY:                ;10kmin-N2_washer+Al2O3+cover.ngb-ts5.ngb-es5
#LABORATORY:                 ;
#OPERATOR:                   ;
#REMARK:                     ;
#SAMPLE:                     ;1
#SAMPLE MASS /mg:            ;23,8825
#MATERIAL:                   ;
#REFERENCE:                  ;
#REFERENCE MASS /mg:         ;0
#TYPE OF CRUCIBLE:           ;DSC/TG pan Al2O3
#SAMPLE CRUCIBLE MASS /mg:   ;0
#REFERENCE CRUCIBLE MASS /mg:;0
#DSC RANGE /�V:              ;5000
#TG RANGE /mg:               ;35000
#TAU-R:                      ;---
#CORR. CODE:                 ;020
#EXO:                        ;+1
#RANGE:                      ;30�C/10,0(K/min)/500�C
#SEGMENT:                    ;S1/1
#SEG. 1:                     ;30�C/10,0(K/min)/500�C

##Temp./�C;DSC/(mW/mg)
30,27800;-1,177243e-002
45.55664;-0.15712
47.46647;-0.16985
49.3763;-0.18158
51.28613;-0.19179
53.19596;-0.20188
55.10579;-0.21164
57.01562;-0.22051
58.92545;-0.22896
60.83528;-0.23658
62.74511;-0.24406
64.65494;-0.25051
66.56477;-0.2575
68.4746;-0.26335
70.38443;-0.26901
72.29426;-0.27443
74.20409;-0.27878
76.11392;-0.28315
78.02375;-0.28742
79.93358;-0.291
81.84341;-0.29462
83.75324;-0.29792
85.66307;-0.30085
87.5729;-0.30356
89.48273;-0.30623
91.39256;-0.30786
93.30239;-0.30934
95.21222;-0.31084
97.12205;-0.3127
99.03188;-0.3135
100.942;-0.31469
102.852;-0.31461
104.761;-0.31523
106.6712;-0.31566
108.581;-0.3153
110.491;-0.31575
112.401;-0.31532
114.311;-0.31524
116.22;-0.31454
118.13;-0.31377
120.04;-0.31316
121.95;-0.31228
123.86;-0.31076
125.7695;-0.30981
127.679;-0.30802
129.589;-0.30644
131.499;-0.30509
133.409;-0.3033
135.319;-0.30117
137.228;-0.29897
139.138;-0.29733
141.048;-0.29514
142.958;-0.29277
144.8678;-0.29068
146.778;-0.28821
148.687;-0.28583
150.597;-0.28377
152.507;-0.28125
154.417;-0.27869
156.327;-0.27634
158.237;-0.27326
160.146;-0.27053
162.056;-0.26841
163.9661;-0.26555
165.876;-0.26298
167.786;-0.26046
169.696;-0.25781
171.605;-0.25516
173.515;-0.25276
175.425;-0.24999
177.335;-0.2479
179.245;-0.24533
181.155;-0.24268
183.0644;-0.23992
184.974;-0.2388
186.884;-0.24128
188.794;-0.27073
190.704;-0.35348
192.614;-0.46323
194.523;-0.60224
196.433;-0.71192
198.343;-0.78038
200.253;-0.78616
202.1627;-0.72165
204.073;-0.63257
205.982;-0.52791
207.892;-0.44011
209.802;-0.37182
211.712;-0.3187
213.622;-0.27787
215.532;-0.2467
217.441;-0.22329
219.351;-0.2065
221.261;-0.19458
223.171;-0.18571
225.081;-0.18082
226.99;-0.17794
228.9;-0.17719
230.81;-0.17882
232.72;-0.18192
234.63;-0.18675
236.54;-0.19292
238.449;-0.20019
240.3593;-0.20889
242.269;-0.21831
244.179;-0.22906
246.089;-0.24134
247.999;-0.25462
249.908;-0.26835
251.818;-0.28421
253.728;-0.30108
255.638;-0.3185
257.548;-0.33844
259.4576;-0.35885
261.367;-0.38114
263.277;-0.40537
265.187;-0.43093
267.097;-0.45815
269.007;-0.48738
270.917;-0.51895
272.826;-0.55193
274.736;-0.5881
276.646;-0.62594
278.5559;-0.6664
280.466;-0.70975
282.376;-0.7556
284.285;-0.80397
286.195;-0.85545
288.105;-0.91024
290.015;-0.9676
291.925;-1.02829
293.835;-1.09104
295.744;-1.16088
297.6542;-1.23243
299.564;-1.30708
301.474;-1.38699
303.384;-1.46972
305.294;-1.5571
307.203;-1.64891
309.113;-1.74431
311.023;-1.84332
312.933;-1.94599
314.843;-2.05415
316.7525;-2.16636
318.662;-2.28426
320.572;-2.40605
322.482;-2.52625
324.392;-2.64975
326.302;-2.7736
328.211;-2.90145
330.121;-3.03125
332.031;-3.16613
333.941;-3.30675
335.8508;-3.44078
337.761;-3.56018
339.67;-3.67698
341.58;-3.7996
343.49;-3.92966
345.4;-4.06579
347.31;-4.1923
349.22;-4.32092
351.129;-4.46764
353.039;-4.61465
354.9491;-4.70977
356.859;-4.78699
358.769;-4.90602
360.679;-4.99695
362.588;-5.09709
364.498;-5.1767
366.408;-5.19029
368.318;-5.13687
370.228;-4.99878
372.138;-4.69498
374.0474;-4.04603
375.957;-2.95773
377.867;-2.17148
379.777;-1.63848
381.687;-1.25917
383.597;-0.98936
385.506;-0.79101
387.416;-0.65324
389.326;-0.55432
391.236;-0.48585
393.1457;-0.43926
395.056;-0.40815
396.965;-0.38752
398.875;-0.37434
400.785;-0.36636
402.695;-0.36165
404.605;-0.3598
406.515;-0.35882
408.424;-0.35953
410.334;-0.36033
412.244;-0.36212
414.154;-0.36427
416.064;-0.36678
417.973;-0.36929
419.883;-0.37324
421.793;-0.3768
423.703;-0.38029
425.613;-0.38372
427.523;-0.38837
429.432;-0.39252
431.3423;-0.39672
433.252;-0.40194
435.162;-0.40747
437.072;-0.41297
438.982;-0.41901
440.891;-0.42524
442.801;-0.43206
444.711;-0.4391
446.621;-0.44616
448.531;-0.45324
450.4406;-0.46136
452.35;-0.46774
454.26;-0.47524
456.17;-0.48161
458.08;-0.48721
459.99;-0.4925
461.9;-0.49617
463.809;-0.4994
465.719;-0.50125
467.629;-0.50331
469.5389;-0.50441
471.449;-0.505
473.359;-0.50637
475.268;-0.50676
477.178;-0.50819
479.088;-0.50875
480.998;-0.51019
482.908;-0.51111
484.818;-0.51251
486.727;-0.51429
488.6372;-0.51629
490.547;-0.5185
492.457;-0.52045
494.367;-0.52311
496.277;-0.52478
498.186;-0.52478